LabVIEW Measurement	
Writer_Version	2
Reader_Version	2
Separator	Tab
Decimal_Separator	.
Multi_Headings	No
X_Columns	No
Time_Pref	Relative
Operator	szc0199
Date	2024/09/16
Time	17:13:14.35045623779296875
***End_of_Header***	
	
Channels	2		
Samples	250	250	
Date	2024/09/16	2024/09/16	
Time	17:13:14.35045623779296875	17:13:14.35045623779296875	
X_Dimension	Time	Time	
X0	0.0000000000000000E+0	0.0000000000000000E+0	
Delta_X	1.000000	1.000000	
***End_of_Header***			
X_Value	Untitled	Untitled 1	Comment
	-75.006493	-4.779327E-6
	-74.504852	-4.756031E-6
	-74.006134	-4.735770E-6
	-73.508278	-4.711967E-6
	-73.006630	-4.692719E-6
	-72.508339	-4.668914E-6
	-72.006577	-4.645615E-6
	-71.508316	-4.623329E-6
	-71.006317	-4.601042E-6
	-70.507965	-4.575212E-6
	-70.006241	-4.553432E-6
	-69.507828	-4.527096E-6
	-69.009483	-4.502783E-6
	-68.507584	-4.472394E-6
	-68.009079	-4.452641E-6
	-67.507393	-4.425796E-6
	-67.008995	-4.396420E-6
	-66.507553	-4.369069E-6
	-66.008919	-4.345769E-6
	-65.506844	-4.317407E-6
	-65.008476	-4.289551E-6
	-64.506630	-4.258656E-6
	-64.008095	-4.229277E-6
	-63.509361	-4.202433E-6
	-63.007240	-4.171029E-6
	-62.508736	-4.143173E-6
	-62.006851	-4.117848E-6
	-61.508480	-4.078343E-6
	-61.006592	-4.049980E-6
	-60.507954	-4.021110E-6
	-60.006348	-3.987680E-6
	-59.507965	-3.955266E-6
	-59.006126	-3.921329E-6
	-58.507420	-3.893471E-6
	-58.009007	-3.860043E-6
	-57.506859	-3.827628E-6
	-57.008240	-3.798757E-6
	-56.506302	-3.760264E-6
	-56.007816	-3.729874E-6
	-55.506012	-3.693913E-6
	-55.007103	-3.658964E-6
	-54.505283	-3.626550E-6
	-54.006851	-3.588057E-6
	-53.508190	-3.549563E-6
	-53.006359	-3.516135E-6
	-52.507900	-3.475615E-6
	-52.005924	-3.438134E-6
	-51.507679	-3.403692E-6
	-51.005993	-3.366719E-6
	-50.507568	-3.330252E-6
	-50.005848	-3.295810E-6
	-49.507088	-3.257318E-6
	-49.005337	-3.223383E-6
	-48.506958	-3.189446E-6
	-48.008709	-3.156525E-6
	-47.506889	-3.119550E-6
	-47.008415	-3.089667E-6
	-46.507030	-3.058266E-6
	-46.008606	-3.022810E-6
	-45.507053	-2.990903E-6
	-45.008469	-2.954940E-6
	-44.506989	-2.922524E-6
	-44.008209	-2.894161E-6
	-43.506409	-2.860226E-6
	-43.007927	-2.827810E-6
	-42.509560	-2.795902E-6
	-42.007881	-2.768550E-6
	-41.509319	-2.734110E-6
	-41.007404	-2.701187E-6
	-40.508995	-2.667759E-6
	-40.007290	-2.636356E-6
	-39.509090	-2.607485E-6
	-39.007156	-2.571525E-6
	-38.508324	-2.538096E-6
	-38.009727	-2.507707E-6
	-37.508038	-2.474279E-6
	-37.009525	-2.439837E-6
	-36.507507	-2.405395E-6
	-36.008877	-2.371461E-6
	-35.506714	-2.340564E-6
	-35.008259	-2.303590E-6
	-34.506405	-2.268643E-6
	-34.007820	-2.238759E-6
	-33.505947	-2.202292E-6
	-33.007484	-2.165824E-6
	-32.508949	-2.131890E-6
	-32.007256	-2.102514E-6
	-31.508654	-2.068578E-6
	-31.006935	-2.037682E-6
	-30.508167	-2.003747E-6
	-30.006081	-1.976396E-6
	-29.507433	-1.942969E-6
	-29.005623	-1.913591E-6
	-28.507055	-1.883202E-6
	-28.005013	-1.850280E-6
	-27.506298	-1.819890E-6
	-27.007788	-1.788994E-6
	-26.505857	-1.760123E-6
	-26.007366	-1.727202E-6
	-25.505548	-1.698332E-6
	-25.007122	-1.666423E-6
	-24.505199	-1.631982E-6
	-24.006794	-1.600072E-6
	-23.505112	-1.564112E-6
	-23.006556	-1.537774E-6
	-22.508211	-1.509411E-6
	-22.006128	-1.477501E-6
	-21.507704	-1.446099E-6
	-21.006199	-1.421280E-6
	-20.507639	-1.380762E-6
	-20.005960	-1.352904E-6
	-19.507750	-1.315930E-6
	-19.005962	-1.283515E-6
	-18.507563	-1.250086E-6
	-18.005880	-1.213619E-6
	-17.507597	-1.180191E-6
	-17.009060	-1.143216E-6
	-16.506969	-1.104217E-6
	-16.008518	-1.073321E-6
	-15.506745	-1.032295E-6
	-15.008310	-9.938015E-7
	-14.506497	-9.598664E-7
	-14.007858	-9.183339E-7
	-13.506093	-8.813601E-7
	-13.007608	-8.403341E-7
	-12.506070	-7.967758E-7
	-12.007520	-7.572694E-7
	-11.508982	-7.126982E-7
	-11.006791	-6.686333E-7
	-10.508182	-6.230491E-7
	-10.006259	-5.769583E-7
	-9.507707	-5.293480E-7
	-9.005866	-4.751534E-7
	-8.506886	-4.265317E-7
	-8.004933	-3.774051E-7
	-7.506382	-3.186559E-7
	-7.007833	-2.669970E-7
	-6.505976	-2.148318E-7
	-6.006963	-1.570953E-7
	-5.505556	-9.783957E-8
	-5.007025	-4.314199E-8
	-4.505031	1.560730E-8
	-4.006684	7.131786E-8
	-3.504668	1.234830E-7
	-3.005784	1.771678E-7
	-2.503659	2.313591E-7
	-2.005188	2.825112E-7
	-1.506637	3.372089E-7
	-1.004572	4.000095E-7
	-0.506194	4.825628E-7
	-0.003967	5.813222E-7
	0.497600	6.952754E-7
	0.996055	8.269556E-7
	1.498206	9.723095E-7
	1.996794	1.135896E-6
	2.495359	1.345063E-6
	2.997217	1.671730E-6
	3.495925	2.218706E-6
	3.997771	3.040689E-6
	4.496550	4.139706E-6
	4.998397	5.531962E-6
	5.496872	7.154659E-6
	5.998729	9.051349E-6
	6.496810	1.113442E-5
	6.999024	1.336791E-5
	7.497803	1.562976E-5
	7.996223	1.785614E-5
	8.498082	1.995491E-5
	8.996577	2.178627E-5
	9.498604	2.330615E-5
	9.997464	2.454191E-5
	10.499334	2.557813E-5
	10.997890	2.649432E-5
	11.499704	2.739530E-5
	11.998222	2.831403E-5
	12.497265	2.927022E-5
	12.998567	3.026288E-5
	13.497182	3.124744E-5
	13.998773	3.222895E-5
	14.497278	3.320642E-5
	14.999135	3.417628E-5
	15.497604	3.503018E-5
	15.999353	3.584152E-5
	16.497784	3.647207E-5
	16.999479	3.716590E-5
	17.497950	3.783798E-5
	17.996563	3.848270E-5
	18.498320	3.911780E-5
	18.996744	3.973011E-5
	19.498402	4.033229E-5
	19.996162	4.098106E-5
	20.498219	4.172506E-5
	20.996771	4.253286E-5
	21.498304	4.314618E-5
	21.996698	4.376710E-5
	22.495085	4.439612E-5
	22.996738	4.502766E-5
	23.495586	4.572963E-5
	23.997179	4.643816E-5
	24.495611	4.705097E-5
	24.997217	4.764961E-5
	25.495565	4.823456E-5
	25.997597	4.882510E-5
	26.496056	4.935028E-5
	26.994806	4.993677E-5
	27.496681	5.052729E-5
	27.995180	5.111886E-5
	28.496872	5.169313E-5
	28.995840	5.229889E-5
	29.497757	5.287373E-5
	29.996145	5.345666E-5
	30.498211	5.404363E-5
	30.996695	5.461340E-5
	31.498640	5.520549E-5
	31.997334	5.577777E-5
	32.495861	5.638754E-5
	32.997616	5.699224E-5
	33.495628	5.758834E-5
	33.997490	5.820116E-5
	34.496544	5.882866E-5
	34.998177	5.942783E-5
	35.496727	6.001784E-5
	35.998581	6.062710E-5
	36.497059	6.120600E-5
	36.996101	6.176005E-5
	37.497948	6.234401E-5
	37.996529	6.293959E-5
	38.498341	6.354533E-5
	38.996807	6.415306E-5
	39.498829	6.476438E-5
	39.997124	6.538326E-5
	40.498905	6.597480E-5
	40.997238	6.653189E-5
	41.499027	6.686516E-5
	41.997334	6.752459E-5
	42.495975	6.819511E-5
	42.997723	6.888690E-5
	43.496189	6.956556E-5
	43.997921	7.025183E-5
	44.496403	7.094974E-5
	44.998096	7.164713E-5
	45.496662	7.234097E-5
	45.998314	7.304952E-5
	46.496723	7.376465E-5
	46.994503	7.445645E-5
	47.496212	7.514979E-5
	47.994968	7.580466E-5
	48.496578	7.648434E-5
	48.995117	7.716601E-5
	49.496613	7.790495E-5
