LabVIEW Measurement	
Writer_Version	2
Reader_Version	2
Separator	Tab
Decimal_Separator	.
Multi_Headings	No
X_Columns	No
Time_Pref	Relative
Operator	szc0199
Date	2024/09/16
Time	17:27:11.611415863037109375
***End_of_Header***	
	
Channels	2		
Samples	250	250	
Date	2024/09/16	2024/09/16	
Time	17:27:11.611415863037109375	17:27:11.611415863037109375	
X_Dimension	Time	Time	
X0	0.0000000000000000E+0	0.0000000000000000E+0	
Delta_X	1.000000	1.000000	
***End_of_Header***			
X_Value	Untitled	Untitled 1	Comment
	-75.006538	-6.879626E-6
	-74.504814	-6.845695E-6
	-74.006203	-6.809738E-6
	-73.508537	-6.779855E-6
	-73.006958	-6.741876E-6
	-72.508736	-6.707442E-6
	-72.007072	-6.672998E-6
	-71.508888	-6.636535E-6
	-71.006966	-6.607668E-6
	-70.508636	-6.574747E-6
	-70.007080	-6.536257E-6
	-69.508736	-6.500302E-6
	-69.010490	-6.469402E-6
	-68.508667	-6.428892E-6
	-68.010323	-6.395466E-6
	-67.508705	-6.362544E-6
	-67.010353	-6.320512E-6
	-66.508827	-6.284554E-6
	-66.010086	-6.247082E-6
	-65.507919	-6.211628E-6
	-65.009422	-6.170102E-6
	-64.507477	-6.139205E-6
	-64.008949	-6.105780E-6
	-63.510056	-6.068810E-6
	-63.007912	-6.032347E-6
	-62.509308	-5.996896E-6
	-62.007317	-5.955873E-6
	-61.508873	-5.921943E-6
	-61.006855	-5.883957E-6
	-60.508156	-5.850533E-6
	-60.006458	-5.811030E-6
	-59.507889	-5.771528E-6
	-59.006111	-5.741137E-6
	-58.507324	-5.703159E-6
	-58.008854	-5.667705E-6
	-57.506557	-5.626180E-6
	-57.007877	-5.588706E-6
	-56.505863	-5.552746E-6
	-56.007317	-5.519320E-6
	-55.505356	-5.477285E-6
	-55.006321	-5.438287E-6
	-54.504528	-5.401319E-6
	-54.005852	-5.370930E-6
	-53.507092	-5.326365E-6
	-53.005329	-5.294964E-6
	-52.506981	-5.254451E-6
	-52.005062	-5.212923E-6
	-51.506905	-5.179497E-6
	-51.005314	-5.144046E-6
	-50.506996	-5.102518E-6
	-50.005295	-5.063522E-6
	-49.506710	-5.025538E-6
	-49.005074	-4.991099E-6
	-48.506817	-4.951095E-6
	-48.008644	-4.916649E-6
	-47.507011	-4.880691E-6
	-47.008480	-4.839167E-6
	-46.507263	-4.795107E-6
	-46.008907	-4.755609E-6
	-45.507401	-4.719140E-6
	-45.008907	-4.679639E-6
	-44.507469	-4.640134E-6
	-44.008839	-4.605189E-6
	-43.507057	-4.561131E-6
	-43.008671	-4.526187E-6
	-42.510456	-4.489216E-6
	-42.008762	-4.448700E-6
	-41.510380	-4.411731E-6
	-41.008621	-4.372228E-6
	-40.510284	-4.336776E-6
	-40.008579	-4.297273E-6
	-39.510277	-4.259291E-6
	-39.008446	-4.221306E-6
	-38.509483	-4.184335E-6
	-38.010895	-4.136732E-6
	-37.509022	-4.091659E-6
	-37.010399	-4.060259E-6
	-36.508289	-4.019235E-6
	-36.009556	-3.982772E-6
	-35.507332	-3.943269E-6
	-35.008835	-3.901742E-6
	-34.506878	-3.863251E-6
	-34.008167	-3.819192E-6
	-33.506226	-3.780197E-6
	-33.007748	-3.737149E-6
	-32.509113	-3.694102E-6
	-32.007198	-3.650040E-6
	-31.508549	-3.610538E-6
	-31.006742	-3.570528E-6
	-30.507891	-3.531533E-6
	-30.005674	-3.484940E-6
	-29.506952	-3.441892E-6
	-29.005123	-3.404413E-6
	-28.506447	-3.359847E-6
	-28.004267	-3.317309E-6
	-27.505486	-3.276285E-6
	-27.006866	-3.233236E-6
	-26.504677	-3.193734E-6
	-26.006298	-3.149167E-6
	-25.504652	-3.104094E-6
	-25.006287	-3.056996E-6
	-24.504520	-3.012936E-6
	-24.006218	-2.974443E-6
	-23.504543	-2.928359E-6
	-23.006084	-2.883285E-6
	-22.507828	-2.833655E-6
	-22.005836	-2.788582E-6
	-21.507555	-2.741989E-6
	-21.006025	-2.696408E-6
	-20.507673	-2.645762E-6
	-20.005945	-2.593601E-6
	-19.507864	-2.546502E-6
	-19.006090	-2.496870E-6
	-18.507959	-2.444707E-6
	-18.006287	-2.394569E-6
	-17.508121	-2.344432E-6
	-17.009636	-2.291254E-6
	-16.507782	-2.237571E-6
	-16.009287	-2.183888E-6
	-15.507567	-2.129193E-6
	-15.009329	-2.075004E-6
	-14.507678	-2.017269E-6
	-14.009094	-1.954977E-6
	-13.507321	-1.895723E-6
	-13.008907	-1.834949E-6
	-12.507586	-1.768100E-6
	-12.008913	-1.705806E-6
	-11.510182	-1.634905E-6
	-11.007905	-1.560458E-6
	-10.509292	-1.492595E-6
	-10.007228	-1.414602E-6
	-9.508508	-1.337623E-6
	-9.006582	-1.252034E-6
	-8.507510	-1.170496E-6
	-8.005530	-1.078324E-6
	-7.507050	-9.937479E-7
	-7.008261	-8.949920E-7
	-6.506206	-7.957293E-7
	-6.007294	-6.949470E-7
	-5.505674	-5.931521E-7
	-5.007130	-4.908507E-7
	-4.505064	-3.880468E-7
	-4.006523	-2.832198E-7
	-3.504516	-1.788994E-7
	-3.005536	-8.470732E-8
	-2.503300	1.860073E-8
	-2.004775	1.011451E-7
	-1.506030	1.872348E-7
	-1.003902	2.657279E-7
	-0.505320	3.482731E-7
	-0.002878	4.419592E-7
	0.496889	5.574213E-7
	0.995467	7.073181E-7
	1.497701	8.855747E-7
	1.996421	1.111434E-6
	2.495010	1.431485E-6
	2.997060	1.960683E-6
	3.495802	2.826645E-6
	3.997793	4.173190E-6
	4.496306	6.061586E-6
	4.998563	8.552116E-6
	5.497122	1.159058E-5
	5.999039	1.512835E-5
	6.497166	1.902265E-5
	6.999417	2.318382E-5
	7.498376	2.742908E-5
	7.996758	3.165961E-5
	8.498778	3.577925E-5
	8.997514	3.966750E-5
	9.499490	4.334097E-5
	9.998364	4.670248E-5
	10.500504	4.979010E-5
	10.999061	5.252775E-5
	11.500886	5.499142E-5
	11.999617	5.717460E-5
	12.498645	5.916274E-5
	13.000116	6.101471E-5
	13.498629	6.276185E-5
	14.000174	6.444105E-5
	14.498487	6.604333E-5
	15.000341	6.762690E-5
	15.498605	6.916481E-5
	16.000341	7.070891E-5
	16.498707	7.220687E-5
	17.000452	7.371043E-5
	17.498714	7.517140E-5
	17.997158	7.660555E-5
	18.498800	7.803462E-5
	18.997278	7.943185E-5
	19.498764	8.081229E-5
	19.996590	8.184079E-5
	20.498505	8.300610E-5
	20.996851	8.417685E-5
	21.498405	8.534821E-5
	21.996592	8.650123E-5
	22.495052	8.767920E-5
	22.996548	8.883634E-5
	23.495274	8.983602E-5
	23.996799	9.077691E-5
	24.495144	9.174316E-5
	24.996582	9.268857E-5
	25.494944	9.358497E-5
	25.996889	9.447732E-5
	26.495314	9.535443E-5
	26.994114	9.625120E-5
	27.496101	9.713588E-5
	27.994617	9.801402E-5
	28.496519	9.882983E-5
	28.995476	9.969019E-5
	29.497568	0.000101
	29.995949	0.000101
	30.498178	0.000103
	30.996786	0.000104
	31.498775	0.000105
	31.997591	0.000106
	32.496178	0.000107
	32.998024	0.000108
	33.496117	0.000109
	33.998146	0.000110
	34.497150	0.000111
	34.998905	0.000112
	35.497643	0.000113
	35.999645	0.000114
	36.498093	0.000116
	36.997299	0.000117
	37.499161	0.000118
	37.997940	0.000119
	38.499718	0.000120
	38.998341	0.000122
	39.500431	0.000123
	39.998878	0.000124
	40.500496	0.000125
	40.998753	0.000127
	41.500393	0.000128
	41.998692	0.000129
	42.497330	0.000131
	42.998997	0.000132
	43.497215	0.000133
	43.998959	0.000134
	44.497276	0.000135
	44.999001	0.000136
	45.497284	0.000137
	45.998909	0.000139
	46.497242	0.000140
	46.995037	0.000141
	47.496632	0.000142
	47.995247	0.000143
	48.496693	0.000144
	48.995255	0.000145
	49.496628	0.000146
